# Profil de Te au temps 1.209999999999997e-12 
# simu : /Volumes/MERCURE/JOBS/tanh_10mic_Zeq10_B0/GNU/Te@y-c.set
# col 0 : abscisse (um)
# col 1 : Te (keV)
0.100000	0.999997
0.300000	0.999997
0.500000	0.999997
0.700000	0.999997
0.900000	0.999997
1.100000	0.999997
1.300000	0.999997
1.500000	0.999997
1.700000	0.999997
1.900000	0.999997
2.100000	0.999997
2.300000	0.999997
2.500000	0.999997
2.700000	0.999997
2.900000	0.999997
3.100000	0.999997
3.300000	0.999997
3.500000	0.999997
3.700000	0.999997
3.900000	0.999996
4.100000	0.999996
4.300000	0.999996
4.500000	0.999996
4.700000	0.999996
4.900000	0.999996
5.100000	0.999996
5.300000	0.999996
5.500000	0.999996
5.700000	0.999995
5.900000	0.999995
6.100000	0.999995
6.300000	0.999995
6.500000	0.999995
6.700000	0.999995
6.900000	0.999994
7.100000	0.999994
7.300000	0.999994
7.500000	0.999994
7.700000	0.999993
7.900000	0.999993
8.100000	0.999993
8.300000	0.999993
8.500000	0.999992
8.700000	0.999992
8.900000	0.999992
9.100000	0.999992
9.300000	0.999991
9.500000	0.999991
9.700000	0.999991
9.900000	0.999990
10.100000	0.999990
10.300000	0.999989
10.500000	0.999989
10.700000	0.999989
10.900000	0.999988
11.100000	0.999988
11.300000	0.999987
11.500000	0.999987
11.700000	0.999986
11.900000	0.999986
12.100000	0.999985
12.300000	0.999984
12.500000	0.999984
12.700000	0.999983
12.900000	0.999982
13.100000	0.999982
13.300000	0.999981
13.500000	0.999980
13.700000	0.999979
13.900000	0.999979
14.100000	0.999978
14.300000	0.999977
14.500000	0.999976
14.700000	0.999975
14.900000	0.999974
15.100000	0.999973
15.300000	0.999972
15.500000	0.999971
15.700000	0.999970
15.900000	0.999968
16.100000	0.999967
16.300000	0.999966
16.500000	0.999964
16.700000	0.999963
16.900000	0.999962
17.100000	0.999960
17.300000	0.999958
17.500000	0.999957
17.700000	0.999955
17.900000	0.999953
18.100000	0.999951
18.300000	0.999950
18.500000	0.999948
18.700000	0.999945
18.900000	0.999943
19.100000	0.999941
19.300000	0.999939
19.500000	0.999936
19.700000	0.999934
19.900000	0.999931
20.100000	0.999928
20.300000	0.999926
20.500000	0.999923
20.700000	0.999920
20.900000	0.999917
21.100000	0.999913
21.300000	0.999910
21.500000	0.999906
21.700000	0.999903
21.900000	0.999899
22.100000	0.999895
22.300000	0.999891
22.500000	0.999887
22.700000	0.999882
22.900000	0.999878
23.100000	0.999873
23.300000	0.999868
23.500000	0.999863
23.700000	0.999858
23.900000	0.999852
24.100000	0.999847
24.300000	0.999841
24.500000	0.999835
24.700000	0.999828
24.900000	0.999822
25.100000	0.999815
25.300000	0.999808
25.500000	0.999800
25.700000	0.999793
25.900000	0.999785
26.100000	0.999777
26.300000	0.999768
26.500000	0.999760
26.700000	0.999751
26.900000	0.999741
27.100000	0.999732
27.300000	0.999721
27.500000	0.999711
27.700000	0.999700
27.900000	0.999689
28.100000	0.999677
28.300000	0.999666
28.500000	0.999653
28.700000	0.999640
28.900000	0.999627
29.100000	0.999613
29.300000	0.999599
29.500000	0.999584
29.700000	0.999569
29.900000	0.999553
30.100000	0.999537
30.300000	0.999520
30.500000	0.999503
30.700000	0.999485
30.900000	0.999466
31.100000	0.999447
31.300000	0.999427
31.500000	0.999406
31.700000	0.999385
31.900000	0.999363
32.100000	0.999340
32.300000	0.999317
32.500000	0.999293
32.700000	0.999268
32.900000	0.999242
33.100000	0.999215
33.300000	0.999188
33.500000	0.999159
33.700000	0.999130
33.900000	0.999100
34.100000	0.999069
34.300000	0.999036
34.500000	0.999003
34.700000	0.998969
34.900000	0.998933
35.100000	0.998897
35.300000	0.998859
35.500000	0.998821
35.700000	0.998781
35.900000	0.998739
36.100000	0.998697
36.300000	0.998653
36.500000	0.998608
36.700000	0.998562
36.900000	0.998514
37.100000	0.998465
37.300000	0.998414
37.500000	0.998362
37.700000	0.998308
37.900000	0.998253
38.100000	0.998196
38.300000	0.998137
38.500000	0.998077
38.700000	0.998015
38.900000	0.997951
39.100000	0.997886
39.300000	0.997818
39.500000	0.997749
39.700000	0.997678
39.900000	0.997605
40.100000	0.997529
40.300000	0.997452
40.500000	0.997373
40.700000	0.997291
40.900000	0.997207
41.100000	0.997121
41.300000	0.997033
41.500000	0.996942
41.700000	0.996849
41.900000	0.996754
42.100000	0.996656
42.300000	0.996556
42.500000	0.996453
42.700000	0.996347
42.900000	0.996238
43.100000	0.996127
43.300000	0.996013
43.500000	0.995897
43.700000	0.995777
43.900000	0.995655
44.100000	0.995529
44.300000	0.995400
44.500000	0.995269
44.700000	0.995134
44.900000	0.994996
45.100000	0.994855
45.300000	0.994710
45.500000	0.994562
45.700000	0.994411
45.900000	0.994256
46.100000	0.994097
46.300000	0.993935
46.500000	0.993769
46.700000	0.993600
46.900000	0.993427
47.100000	0.993250
47.300000	0.993069
47.500000	0.992884
47.700000	0.992696
47.900000	0.992503
48.100000	0.992306
48.300000	0.992105
48.500000	0.991900
48.700000	0.991690
48.900000	0.991477
49.100000	0.991258
49.300000	0.991036
49.500000	0.990809
49.700000	0.990577
49.900000	0.990341
50.100000	0.990100
50.300000	0.989854
50.500000	0.989604
50.700000	0.989349
50.900000	0.989089
51.100000	0.988824
51.300000	0.988554
51.500000	0.988278
51.700000	0.987998
51.900000	0.987713
52.100000	0.987422
52.300000	0.987127
52.500000	0.986825
52.700000	0.986519
52.900000	0.986207
53.100000	0.985889
53.300000	0.985566
53.500000	0.985238
53.700000	0.984903
53.900000	0.984563
54.100000	0.984218
54.300000	0.983866
54.500000	0.983508
54.700000	0.983145
54.900000	0.982775
55.100000	0.982400
55.300000	0.982018
55.500000	0.981630
55.700000	0.981236
55.900000	0.980836
56.100000	0.980429
56.300000	0.980016
56.500000	0.979596
56.700000	0.979170
56.900000	0.978737
57.100000	0.978298
57.300000	0.977852
57.500000	0.977399
57.700000	0.976939
57.900000	0.976472
58.100000	0.975998
58.300000	0.975517
58.500000	0.975029
58.700000	0.974534
58.900000	0.974031
59.100000	0.973521
59.300000	0.973004
59.500000	0.972479
59.700000	0.971946
59.900000	0.971406
60.100000	0.970858
60.300000	0.970302
60.500000	0.969738
60.700000	0.969166
60.900000	0.968586
61.100000	0.967997
61.300000	0.967401
61.500000	0.966795
61.700000	0.966181
61.900000	0.965559
62.100000	0.964928
62.300000	0.964287
62.500000	0.963638
62.700000	0.962979
62.900000	0.962312
63.100000	0.961634
63.300000	0.960947
63.500000	0.960251
63.700000	0.959544
63.900000	0.958828
64.100000	0.958101
64.300000	0.957364
64.500000	0.956617
64.700000	0.955858
64.900000	0.955089
65.100000	0.954309
65.300000	0.953518
65.500000	0.952715
65.700000	0.951900
65.900000	0.951074
66.100000	0.950235
66.300000	0.949385
66.500000	0.948521
66.700000	0.947645
66.900000	0.946756
67.100000	0.945854
67.300000	0.944938
67.500000	0.944008
67.700000	0.943065
67.900000	0.942107
68.100000	0.941134
68.300000	0.940146
68.500000	0.939143
68.700000	0.938125
68.900000	0.937090
69.100000	0.936040
69.300000	0.934973
69.500000	0.933888
69.700000	0.932787
69.900000	0.931668
70.100000	0.930531
70.300000	0.929375
70.500000	0.928201
70.700000	0.927007
70.900000	0.925794
71.100000	0.924560
71.300000	0.923306
71.500000	0.922031
71.700000	0.920734
71.900000	0.919415
72.100000	0.918074
72.300000	0.916710
72.500000	0.915323
72.700000	0.913911
72.900000	0.912475
73.100000	0.911013
73.300000	0.909527
73.500000	0.908013
73.700000	0.906474
73.900000	0.904906
74.100000	0.903311
74.300000	0.901687
74.500000	0.900034
74.700000	0.898351
74.900000	0.896637
75.100000	0.894892
75.300000	0.893116
75.500000	0.891307
75.700000	0.889465
75.900000	0.887588
76.100000	0.885678
76.300000	0.883732
76.500000	0.881749
76.700000	0.879730
76.900000	0.877674
77.100000	0.875579
77.300000	0.873446
77.500000	0.871272
77.700000	0.869058
77.900000	0.866803
78.100000	0.864505
78.300000	0.862165
78.500000	0.859781
78.700000	0.857352
78.900000	0.854878
79.100000	0.852359
79.300000	0.849792
79.500000	0.847178
79.700000	0.844515
79.900000	0.841803
80.100000	0.839042
80.300000	0.836229
80.500000	0.833365
80.700000	0.830449
80.900000	0.827479
81.100000	0.824456
81.300000	0.821379
81.500000	0.818246
81.700000	0.815057
81.900000	0.811811
82.100000	0.808509
82.300000	0.805148
82.500000	0.801728
82.700000	0.798250
82.900000	0.794711
83.100000	0.791113
83.300000	0.787453
83.500000	0.783732
83.700000	0.779949
83.900000	0.776104
84.100000	0.772195
84.300000	0.768224
84.500000	0.764190
84.700000	0.760091
84.900000	0.755929
85.100000	0.751702
85.300000	0.747411
85.500000	0.743056
85.700000	0.738636
85.900000	0.734152
86.100000	0.729603
86.300000	0.724989
86.500000	0.720312
86.700000	0.715571
86.900000	0.710766
87.100000	0.705897
87.300000	0.700966
87.500000	0.695972
87.700000	0.690917
87.900000	0.685801
88.100000	0.680624
88.300000	0.675387
88.500000	0.670092
88.700000	0.664738
88.900000	0.659328
89.100000	0.653863
89.300000	0.648342
89.500000	0.642769
89.700000	0.637143
89.900000	0.631467
90.100000	0.625743
90.300000	0.619970
90.500000	0.614152
90.700000	0.608291
90.900000	0.602387
91.100000	0.596443
91.300000	0.590461
91.500000	0.584443
91.700000	0.578391
91.900000	0.572307
92.100000	0.566194
92.300000	0.560055
92.500000	0.553891
92.700000	0.547705
92.900000	0.541500
93.100000	0.535279
93.300000	0.529043
93.500000	0.522797
93.700000	0.516543
93.900000	0.510284
94.100000	0.504022
94.300000	0.497761
94.500000	0.491504
94.700000	0.485254
94.900000	0.479015
95.100000	0.472788
95.300000	0.466578
95.500000	0.460387
95.700000	0.454219
95.900000	0.448078
96.100000	0.441965
96.300000	0.435885
96.500000	0.429840
96.700000	0.423834
96.900000	0.417869
97.100000	0.411950
97.300000	0.406078
97.500000	0.400257
97.700000	0.394490
97.900000	0.388779
98.100000	0.383128
98.300000	0.377538
98.500000	0.372014
98.700000	0.366556
98.900000	0.361168
99.100000	0.355851
99.300000	0.350608
99.500000	0.345441
99.700000	0.340352
99.900000	0.335343
100.100000	0.330414
100.300000	0.325568
100.500000	0.320807
100.700000	0.316130
100.900000	0.311539
101.100000	0.307036
101.300000	0.302621
101.500000	0.298293
101.700000	0.294055
101.900000	0.289906
102.100000	0.285847
102.300000	0.281876
102.500000	0.277995
102.700000	0.274203
102.900000	0.270500
103.100000	0.266884
103.300000	0.263357
103.500000	0.259916
103.700000	0.256560
103.900000	0.253290
104.100000	0.250104
104.300000	0.247001
104.500000	0.243980
104.700000	0.241039
104.900000	0.238177
105.100000	0.235393
105.300000	0.232685
105.500000	0.230052
105.700000	0.227493
105.900000	0.225005
106.100000	0.222588
106.300000	0.220239
106.500000	0.217958
106.700000	0.215742
106.900000	0.213591
107.100000	0.211501
107.300000	0.209473
107.500000	0.207503
107.700000	0.205592
107.900000	0.203736
108.100000	0.201935
108.300000	0.200187
108.500000	0.198491
108.700000	0.196845
108.900000	0.195248
109.100000	0.193698
109.300000	0.192194
109.500000	0.190734
109.700000	0.189318
109.900000	0.187944
110.100000	0.186611
110.300000	0.185318
110.500000	0.184063
110.700000	0.182846
110.900000	0.181665
111.100000	0.180519
111.300000	0.179408
111.500000	0.178330
111.700000	0.177285
111.900000	0.176271
112.100000	0.175288
112.300000	0.174335
112.500000	0.173411
112.700000	0.172516
112.900000	0.171648
113.100000	0.170807
113.300000	0.169992
113.500000	0.169203
113.700000	0.168439
113.900000	0.167699
114.100000	0.166983
114.300000	0.166290
114.500000	0.165621
114.700000	0.164973
114.900000	0.164347
115.100000	0.163742
115.300000	0.163158
115.500000	0.162594
115.700000	0.162050
115.900000	0.161525
116.100000	0.161019
116.300000	0.160532
116.500000	0.160062
116.700000	0.159610
116.900000	0.159175
117.100000	0.158757
117.300000	0.158356
117.500000	0.157970
117.700000	0.157599
117.900000	0.157244
118.100000	0.156903
118.300000	0.156576
118.500000	0.156263
118.700000	0.155963
118.900000	0.155677
119.100000	0.155403
119.300000	0.155141
119.500000	0.154890
119.700000	0.154651
119.900000	0.154423
120.100000	0.154206
120.300000	0.153999
120.500000	0.153801
120.700000	0.153613
120.900000	0.153434
121.100000	0.153263
121.300000	0.153101
121.500000	0.152946
121.700000	0.152800
121.900000	0.152660
122.100000	0.152528
122.300000	0.152402
122.500000	0.152283
122.700000	0.152169
122.900000	0.152062
123.100000	0.151960
123.300000	0.151863
123.500000	0.151771
123.700000	0.151684
123.900000	0.151601
124.100000	0.151522
124.300000	0.151448
124.500000	0.151378
124.700000	0.151311
124.900000	0.151247
125.100000	0.151187
125.300000	0.151130
125.500000	0.151076
125.700000	0.151025
125.900000	0.150976
126.100000	0.150930
126.300000	0.150886
126.500000	0.150844
126.700000	0.150805
126.900000	0.150767
127.100000	0.150732
127.300000	0.150698
127.500000	0.150666
127.700000	0.150635
127.900000	0.150606
128.100000	0.150579
128.300000	0.150553
128.500000	0.150528
128.700000	0.150504
128.900000	0.150482
129.100000	0.150460
129.300000	0.150440
129.500000	0.150421
129.700000	0.150402
129.900000	0.150384
130.100000	0.150368
130.300000	0.150352
130.500000	0.150337
130.700000	0.150322
130.900000	0.150308
131.100000	0.150295
131.300000	0.150282
131.500000	0.150270
131.700000	0.150259
131.900000	0.150248
132.100000	0.150238
132.300000	0.150228
132.500000	0.150218
132.700000	0.150209
132.900000	0.150200
133.100000	0.150192
133.300000	0.150184
133.500000	0.150177
133.700000	0.150170
133.900000	0.150163
134.100000	0.150156
134.300000	0.150150
134.500000	0.150144
134.700000	0.150138
134.900000	0.150133
135.100000	0.150127
135.300000	0.150122
135.500000	0.150118
135.700000	0.150113
135.900000	0.150109
136.100000	0.150105
136.300000	0.150101
136.500000	0.150097
136.700000	0.150093
136.900000	0.150090
137.100000	0.150087
137.300000	0.150084
137.500000	0.150081
137.700000	0.150078
137.900000	0.150076
138.100000	0.150074
138.300000	0.150072
138.500000	0.150070
138.700000	0.150068
138.900000	0.150066
139.100000	0.150065
139.300000	0.150064
139.500000	0.150063
139.700000	0.150063
139.900000	0.150062
