# Profil de Te au temps 1.200000000000016e-11 
# simu : /Volumes/MERCURE/JOBS/tanh_10mic_Zeq10_B0/GNU/Te@y-c.set
# col 0 : abscisse (um)
# col 1 : Te (keV)
0.100000	0.935448
0.300000	0.935446
0.500000	0.935444
0.700000	0.935440
0.900000	0.935434
1.100000	0.935428
1.300000	0.935420
1.500000	0.935410
1.700000	0.935400
1.900000	0.935388
2.100000	0.935374
2.300000	0.935360
2.500000	0.935344
2.700000	0.935327
2.900000	0.935308
3.100000	0.935288
3.300000	0.935267
3.500000	0.935244
3.700000	0.935220
3.900000	0.935195
4.100000	0.935168
4.300000	0.935140
4.500000	0.935111
4.700000	0.935081
4.900000	0.935049
5.100000	0.935015
5.300000	0.934981
5.500000	0.934945
5.700000	0.934907
5.900000	0.934869
6.100000	0.934828
6.300000	0.934787
6.500000	0.934744
6.700000	0.934700
6.900000	0.934655
7.100000	0.934608
7.300000	0.934560
7.500000	0.934510
7.700000	0.934459
7.900000	0.934407
8.100000	0.934353
8.300000	0.934298
8.500000	0.934242
8.700000	0.934184
8.900000	0.934125
9.100000	0.934064
9.300000	0.934002
9.500000	0.933939
9.700000	0.933874
9.900000	0.933808
10.100000	0.933741
10.300000	0.933672
10.500000	0.933601
10.700000	0.933530
10.900000	0.933457
11.100000	0.933382
11.300000	0.933306
11.500000	0.933229
11.700000	0.933150
11.900000	0.933070
12.100000	0.932988
12.300000	0.932905
12.500000	0.932821
12.700000	0.932735
12.900000	0.932647
13.100000	0.932558
13.300000	0.932468
13.500000	0.932376
13.700000	0.932283
13.900000	0.932189
14.100000	0.932092
14.300000	0.931995
14.500000	0.931896
14.700000	0.931795
14.900000	0.931693
15.100000	0.931590
15.300000	0.931485
15.500000	0.931378
15.700000	0.931270
15.900000	0.931161
16.100000	0.931050
16.300000	0.930937
16.500000	0.930823
16.700000	0.930708
16.900000	0.930591
17.100000	0.930472
17.300000	0.930352
17.500000	0.930230
17.700000	0.930107
17.900000	0.929982
18.100000	0.929856
18.300000	0.929728
18.500000	0.929598
18.700000	0.929467
18.900000	0.929335
19.100000	0.929201
19.300000	0.929065
19.500000	0.928927
19.700000	0.928788
19.900000	0.928648
20.100000	0.928505
20.300000	0.928361
20.500000	0.928216
20.700000	0.928069
20.900000	0.927920
21.100000	0.927770
21.300000	0.927617
21.500000	0.927464
21.700000	0.927308
21.900000	0.927151
22.100000	0.926992
22.300000	0.926832
22.500000	0.926670
22.700000	0.926506
22.900000	0.926340
23.100000	0.926173
23.300000	0.926004
23.500000	0.925833
23.700000	0.925661
23.900000	0.925486
24.100000	0.925310
24.300000	0.925133
24.500000	0.924953
24.700000	0.924772
24.900000	0.924589
25.100000	0.924404
25.300000	0.924217
25.500000	0.924028
25.700000	0.923838
25.900000	0.923646
26.100000	0.923452
26.300000	0.923256
26.500000	0.923058
26.700000	0.922859
26.900000	0.922657
27.100000	0.922454
27.300000	0.922249
27.500000	0.922042
27.700000	0.921833
27.900000	0.921622
28.100000	0.921409
28.300000	0.921194
28.500000	0.920977
28.700000	0.920758
28.900000	0.920538
29.100000	0.920315
29.300000	0.920090
29.500000	0.919864
29.700000	0.919635
29.900000	0.919404
30.100000	0.919172
30.300000	0.918937
30.500000	0.918700
30.700000	0.918461
30.900000	0.918220
31.100000	0.917977
31.300000	0.917732
31.500000	0.917485
31.700000	0.917235
31.900000	0.916984
32.100000	0.916730
32.300000	0.916475
32.500000	0.916217
32.700000	0.915957
32.900000	0.915694
33.100000	0.915430
33.300000	0.915163
33.500000	0.914894
33.700000	0.914623
33.900000	0.914350
34.100000	0.914074
34.300000	0.913796
34.500000	0.913516
34.700000	0.913233
34.900000	0.912948
35.100000	0.912661
35.300000	0.912372
35.500000	0.912080
35.700000	0.911786
35.900000	0.911489
36.100000	0.911190
36.300000	0.910889
36.500000	0.910585
36.700000	0.910278
36.900000	0.909970
37.100000	0.909659
37.300000	0.909345
37.500000	0.909029
37.700000	0.908710
37.900000	0.908389
38.100000	0.908065
38.300000	0.907739
38.500000	0.907410
38.700000	0.907079
38.900000	0.906744
39.100000	0.906408
39.300000	0.906068
39.500000	0.905727
39.700000	0.905382
39.900000	0.905035
40.100000	0.904685
40.300000	0.904332
40.500000	0.903976
40.700000	0.903618
40.900000	0.903257
41.100000	0.902893
41.300000	0.902527
41.500000	0.902158
41.700000	0.901785
41.900000	0.901410
42.100000	0.901032
42.300000	0.900651
42.500000	0.900268
42.700000	0.899881
42.900000	0.899491
43.100000	0.899099
43.300000	0.898703
43.500000	0.898305
43.700000	0.897903
43.900000	0.897499
44.100000	0.897091
44.300000	0.896680
44.500000	0.896266
44.700000	0.895849
44.900000	0.895429
45.100000	0.895006
45.300000	0.894579
45.500000	0.894150
45.700000	0.893717
45.900000	0.893281
46.100000	0.892841
46.300000	0.892399
46.500000	0.891953
46.700000	0.891503
46.900000	0.891051
47.100000	0.890595
47.300000	0.890135
47.500000	0.889672
47.700000	0.889206
47.900000	0.888736
48.100000	0.888263
48.300000	0.887786
48.500000	0.887306
48.700000	0.886822
48.900000	0.886335
49.100000	0.885844
49.300000	0.885349
49.500000	0.884851
49.700000	0.884349
49.900000	0.883843
50.100000	0.883333
50.300000	0.882820
50.500000	0.882303
50.700000	0.881783
50.900000	0.881258
51.100000	0.880730
51.300000	0.880197
51.500000	0.879661
51.700000	0.879121
51.900000	0.878577
52.100000	0.878029
52.300000	0.877477
52.500000	0.876921
52.700000	0.876360
52.900000	0.875796
53.100000	0.875228
53.300000	0.874655
53.500000	0.874079
53.700000	0.873498
53.900000	0.872913
54.100000	0.872323
54.300000	0.871729
54.500000	0.871131
54.700000	0.870529
54.900000	0.869922
55.100000	0.869311
55.300000	0.868696
55.500000	0.868076
55.700000	0.867451
55.900000	0.866822
56.100000	0.866188
56.300000	0.865550
56.500000	0.864907
56.700000	0.864260
56.900000	0.863608
57.100000	0.862951
57.300000	0.862289
57.500000	0.861623
57.700000	0.860952
57.900000	0.860276
58.100000	0.859595
58.300000	0.858909
58.500000	0.858218
58.700000	0.857523
58.900000	0.856822
59.100000	0.856116
59.300000	0.855405
59.500000	0.854689
59.700000	0.853968
59.900000	0.853242
60.100000	0.852511
60.300000	0.851774
60.500000	0.851032
60.700000	0.850285
60.900000	0.849532
61.100000	0.848774
61.300000	0.848011
61.500000	0.847242
61.700000	0.846468
61.900000	0.845688
62.100000	0.844902
62.300000	0.844111
62.500000	0.843314
62.700000	0.842512
62.900000	0.841704
63.100000	0.840890
63.300000	0.840070
63.500000	0.839245
63.700000	0.838414
63.900000	0.837577
64.100000	0.836733
64.300000	0.835884
64.500000	0.835029
64.700000	0.834168
64.900000	0.833301
65.100000	0.832427
65.300000	0.831548
65.500000	0.830662
65.700000	0.829770
65.900000	0.828872
66.100000	0.827967
66.300000	0.827056
66.500000	0.826138
66.700000	0.825215
66.900000	0.824284
67.100000	0.823347
67.300000	0.822404
67.500000	0.821454
67.700000	0.820497
67.900000	0.819534
68.100000	0.818564
68.300000	0.817587
68.500000	0.816603
68.700000	0.815612
68.900000	0.814615
69.100000	0.813610
69.300000	0.812599
69.500000	0.811580
69.700000	0.810555
69.900000	0.809522
70.100000	0.808483
70.300000	0.807436
70.500000	0.806381
70.700000	0.805320
70.900000	0.804251
71.100000	0.803175
71.300000	0.802091
71.500000	0.801000
71.700000	0.799902
71.900000	0.798796
72.100000	0.797682
72.300000	0.796561
72.500000	0.795432
72.700000	0.794296
72.900000	0.793151
73.100000	0.791999
73.300000	0.790839
73.500000	0.789671
73.700000	0.788496
73.900000	0.787312
74.100000	0.786120
74.300000	0.784920
74.500000	0.783713
74.700000	0.782497
74.900000	0.781272
75.100000	0.780040
75.300000	0.778799
75.500000	0.777550
75.700000	0.776293
75.900000	0.775028
76.100000	0.773753
76.300000	0.772471
76.500000	0.771180
76.700000	0.769880
76.900000	0.768572
77.100000	0.767255
77.300000	0.765930
77.500000	0.764595
77.700000	0.763252
77.900000	0.761901
78.100000	0.760540
78.300000	0.759170
78.500000	0.757792
78.700000	0.756405
78.900000	0.755008
79.100000	0.753603
79.300000	0.752188
79.500000	0.750764
79.700000	0.749332
79.900000	0.747890
80.100000	0.746438
80.300000	0.744978
80.500000	0.743508
80.700000	0.742029
80.900000	0.740540
81.100000	0.739042
81.300000	0.737535
81.500000	0.736018
81.700000	0.734492
81.900000	0.732956
82.100000	0.731410
82.300000	0.729855
82.500000	0.728290
82.700000	0.726715
82.900000	0.725131
83.100000	0.723537
83.300000	0.721933
83.500000	0.720319
83.700000	0.718695
83.900000	0.717062
84.100000	0.715418
84.300000	0.713765
84.500000	0.712102
84.700000	0.710428
84.900000	0.708745
85.100000	0.707051
85.300000	0.705348
85.500000	0.703634
85.700000	0.701910
85.900000	0.700177
86.100000	0.698432
86.300000	0.696678
86.500000	0.694913
86.700000	0.693139
86.900000	0.691354
87.100000	0.689558
87.300000	0.687752
87.500000	0.685936
87.700000	0.684110
87.900000	0.682273
88.100000	0.680426
88.300000	0.678569
88.500000	0.676701
88.700000	0.674823
88.900000	0.672934
89.100000	0.671035
89.300000	0.669125
89.500000	0.667205
89.700000	0.665275
89.900000	0.663334
90.100000	0.661382
90.300000	0.659420
90.500000	0.657448
90.700000	0.655465
90.900000	0.653472
91.100000	0.651468
91.300000	0.649454
91.500000	0.647429
91.700000	0.645394
91.900000	0.643348
92.100000	0.641292
92.300000	0.639226
92.500000	0.637149
92.700000	0.635062
92.900000	0.632964
93.100000	0.630856
93.300000	0.628738
93.500000	0.626610
93.700000	0.624471
93.900000	0.622322
94.100000	0.620162
94.300000	0.617993
94.500000	0.615813
94.700000	0.613623
94.900000	0.611423
95.100000	0.609213
95.300000	0.606993
95.500000	0.604763
95.700000	0.602523
95.900000	0.600274
96.100000	0.598014
96.300000	0.595745
96.500000	0.593466
96.700000	0.591177
96.900000	0.588879
97.100000	0.586571
97.300000	0.584253
97.500000	0.581927
97.700000	0.579591
97.900000	0.577245
98.100000	0.574891
98.300000	0.572528
98.500000	0.570155
98.700000	0.567774
98.900000	0.565384
99.100000	0.562985
99.300000	0.560578
99.500000	0.558162
99.700000	0.555738
99.900000	0.553305
100.100000	0.550864
100.300000	0.548416
100.500000	0.545959
100.700000	0.543495
100.900000	0.541023
101.100000	0.538544
101.300000	0.536057
101.500000	0.533563
101.700000	0.531062
101.900000	0.528554
102.100000	0.526040
102.300000	0.523519
102.500000	0.520992
102.700000	0.518458
102.900000	0.515918
103.100000	0.513373
103.300000	0.510822
103.500000	0.508266
103.700000	0.505704
103.900000	0.503138
104.100000	0.500567
104.300000	0.497991
104.500000	0.495411
104.700000	0.492827
104.900000	0.490239
105.100000	0.487647
105.300000	0.485053
105.500000	0.482455
105.700000	0.479854
105.900000	0.477251
106.100000	0.474646
106.300000	0.472039
106.500000	0.469430
106.700000	0.466820
106.900000	0.464209
107.100000	0.461597
107.300000	0.458984
107.500000	0.456372
107.700000	0.453760
107.900000	0.451149
108.100000	0.448539
108.300000	0.445930
108.500000	0.443322
108.700000	0.440717
108.900000	0.438114
109.100000	0.435514
109.300000	0.432918
109.500000	0.430325
109.700000	0.427735
109.900000	0.425151
110.100000	0.422571
110.300000	0.419996
110.500000	0.417427
110.700000	0.414863
110.900000	0.412307
111.100000	0.409757
111.300000	0.407215
111.500000	0.404680
111.700000	0.402153
111.900000	0.399635
112.100000	0.397126
112.300000	0.394627
112.500000	0.392138
112.700000	0.389659
112.900000	0.387191
113.100000	0.384734
113.300000	0.382289
113.500000	0.379856
113.700000	0.377435
113.900000	0.375028
114.100000	0.372634
114.300000	0.370254
114.500000	0.367889
114.700000	0.365538
114.900000	0.363203
115.100000	0.360883
115.300000	0.358579
115.500000	0.356292
115.700000	0.354021
115.900000	0.351768
116.100000	0.349532
116.300000	0.347315
116.500000	0.345115
116.700000	0.342935
116.900000	0.340774
117.100000	0.338632
117.300000	0.336509
117.500000	0.334407
117.700000	0.332326
117.900000	0.330265
118.100000	0.328225
118.300000	0.326206
118.500000	0.324209
118.700000	0.322233
118.900000	0.320280
119.100000	0.318349
119.300000	0.316440
119.500000	0.314554
119.700000	0.312690
119.900000	0.310850
120.100000	0.309033
120.300000	0.307239
120.500000	0.305468
120.700000	0.303721
120.900000	0.301997
121.100000	0.300298
121.300000	0.298622
121.500000	0.296969
121.700000	0.295341
121.900000	0.293736
122.100000	0.292156
122.300000	0.290599
122.500000	0.289066
122.700000	0.287557
122.900000	0.286072
123.100000	0.284611
123.300000	0.283174
123.500000	0.281760
123.700000	0.280369
123.900000	0.279003
124.100000	0.277659
124.300000	0.276339
124.500000	0.275043
124.700000	0.273769
124.900000	0.272518
125.100000	0.271290
125.300000	0.270085
125.500000	0.268902
125.700000	0.267741
125.900000	0.266603
126.100000	0.265486
126.300000	0.264392
126.500000	0.263319
126.700000	0.262268
126.900000	0.261237
127.100000	0.260228
127.300000	0.259240
127.500000	0.258273
127.700000	0.257326
127.900000	0.256399
128.100000	0.255492
128.300000	0.254606
128.500000	0.253739
128.700000	0.252891
128.900000	0.252063
129.100000	0.251253
129.300000	0.250463
129.500000	0.249691
129.700000	0.248938
129.900000	0.248203
130.100000	0.247486
130.300000	0.246787
130.500000	0.246105
130.700000	0.245441
130.900000	0.244794
131.100000	0.244164
131.300000	0.243551
131.500000	0.242955
131.700000	0.242376
131.900000	0.241812
132.100000	0.241265
132.300000	0.240734
132.500000	0.240218
132.700000	0.239718
132.900000	0.239234
133.100000	0.238765
133.300000	0.238311
133.500000	0.237872
133.700000	0.237448
133.900000	0.237039
134.100000	0.236644
134.300000	0.236264
134.500000	0.235898
134.700000	0.235547
134.900000	0.235209
135.100000	0.234885
135.300000	0.234575
135.500000	0.234279
135.700000	0.233997
135.900000	0.233728
136.100000	0.233472
136.300000	0.233230
136.500000	0.233001
136.700000	0.232786
136.900000	0.232583
137.100000	0.232393
137.300000	0.232217
137.500000	0.232053
137.700000	0.231902
137.900000	0.231764
138.100000	0.231638
138.300000	0.231525
138.500000	0.231425
138.700000	0.231338
138.900000	0.231263
139.100000	0.231200
139.300000	0.231150
139.500000	0.231113
139.700000	0.231088
139.900000	0.231075
