# Profil de Te au temps 1.200000000000016e-11 
# simu : /Volumes/MERCURE/JOBS/tanh_10mic_Zeq2_B0/GNU/Te@y-c.set
# col 0 : abscisse (um)
# col 1 : Te (keV)
0.100000	0.878817
0.300000	0.878816
0.500000	0.878813
0.700000	0.878808
0.900000	0.878802
1.100000	0.878794
1.300000	0.878785
1.500000	0.878775
1.700000	0.878762
1.900000	0.878749
2.100000	0.878733
2.300000	0.878717
2.500000	0.878698
2.700000	0.878678
2.900000	0.878657
3.100000	0.878634
3.300000	0.878610
3.500000	0.878584
3.700000	0.878556
3.900000	0.878527
4.100000	0.878497
4.300000	0.878464
4.500000	0.878431
4.700000	0.878396
4.900000	0.878359
5.100000	0.878321
5.300000	0.878281
5.500000	0.878240
5.700000	0.878197
5.900000	0.878152
6.100000	0.878106
6.300000	0.878059
6.500000	0.878010
6.700000	0.877959
6.900000	0.877907
7.100000	0.877854
7.300000	0.877798
7.500000	0.877742
7.700000	0.877683
7.900000	0.877624
8.100000	0.877562
8.300000	0.877499
8.500000	0.877435
8.700000	0.877369
8.900000	0.877301
9.100000	0.877232
9.300000	0.877161
9.500000	0.877089
9.700000	0.877015
9.900000	0.876940
10.100000	0.876863
10.300000	0.876784
10.500000	0.876704
10.700000	0.876622
10.900000	0.876539
11.100000	0.876454
11.300000	0.876368
11.500000	0.876280
11.700000	0.876190
11.900000	0.876099
12.100000	0.876006
12.300000	0.875912
12.500000	0.875816
12.700000	0.875718
12.900000	0.875619
13.100000	0.875518
13.300000	0.875416
13.500000	0.875312
13.700000	0.875207
13.900000	0.875099
14.100000	0.874991
14.300000	0.874880
14.500000	0.874768
14.700000	0.874655
14.900000	0.874540
15.100000	0.874423
15.300000	0.874304
15.500000	0.874184
15.700000	0.874063
15.900000	0.873939
16.100000	0.873814
16.300000	0.873688
16.500000	0.873560
16.700000	0.873430
16.900000	0.873298
17.100000	0.873165
17.300000	0.873030
17.500000	0.872894
17.700000	0.872756
17.900000	0.872616
18.100000	0.872474
18.300000	0.872331
18.500000	0.872187
18.700000	0.872040
18.900000	0.871892
19.100000	0.871742
19.300000	0.871591
19.500000	0.871438
19.700000	0.871283
19.900000	0.871126
20.100000	0.870968
20.300000	0.870808
20.500000	0.870646
20.700000	0.870483
20.900000	0.870318
21.100000	0.870151
21.300000	0.869983
21.500000	0.869813
21.700000	0.869641
21.900000	0.869467
22.100000	0.869292
22.300000	0.869115
22.500000	0.868936
22.700000	0.868755
22.900000	0.868573
23.100000	0.868389
23.300000	0.868203
23.500000	0.868015
23.700000	0.867826
23.900000	0.867635
24.100000	0.867442
24.300000	0.867247
24.500000	0.867051
24.700000	0.866853
24.900000	0.866653
25.100000	0.866451
25.300000	0.866247
25.500000	0.866042
25.700000	0.865835
25.900000	0.865626
26.100000	0.865415
26.300000	0.865202
26.500000	0.864988
26.700000	0.864771
26.900000	0.864553
27.100000	0.864333
27.300000	0.864111
27.500000	0.863888
27.700000	0.863662
27.900000	0.863435
28.100000	0.863205
28.300000	0.862974
28.500000	0.862741
28.700000	0.862507
28.900000	0.862270
29.100000	0.862031
29.300000	0.861791
29.500000	0.861548
29.700000	0.861304
29.900000	0.861058
30.100000	0.860809
30.300000	0.860559
30.500000	0.860307
30.700000	0.860053
30.900000	0.859798
31.100000	0.859540
31.300000	0.859280
31.500000	0.859018
31.700000	0.858755
31.900000	0.858489
32.100000	0.858221
32.300000	0.857952
32.500000	0.857680
32.700000	0.857407
32.900000	0.857131
33.100000	0.856854
33.300000	0.856574
33.500000	0.856292
33.700000	0.856009
33.900000	0.855723
34.100000	0.855436
34.300000	0.855146
34.500000	0.854854
34.700000	0.854561
34.900000	0.854265
35.100000	0.853967
35.300000	0.853667
35.500000	0.853365
35.700000	0.853061
35.900000	0.852755
36.100000	0.852446
36.300000	0.852136
36.500000	0.851823
36.700000	0.851509
36.900000	0.851192
37.100000	0.850873
37.300000	0.850552
37.500000	0.850229
37.700000	0.849904
37.900000	0.849576
38.100000	0.849247
38.300000	0.848915
38.500000	0.848581
38.700000	0.848245
38.900000	0.847906
39.100000	0.847566
39.300000	0.847223
39.500000	0.846878
39.700000	0.846531
39.900000	0.846181
40.100000	0.845830
40.300000	0.845476
40.500000	0.845120
40.700000	0.844761
40.900000	0.844401
41.100000	0.844038
41.300000	0.843672
41.500000	0.843305
41.700000	0.842935
41.900000	0.842563
42.100000	0.842189
42.300000	0.841812
42.500000	0.841433
42.700000	0.841051
42.900000	0.840667
43.100000	0.840281
43.300000	0.839893
43.500000	0.839502
43.700000	0.839109
43.900000	0.838713
44.100000	0.838315
44.300000	0.837915
44.500000	0.837512
44.700000	0.837106
44.900000	0.836699
45.100000	0.836289
45.300000	0.835876
45.500000	0.835461
45.700000	0.835043
45.900000	0.834623
46.100000	0.834201
46.300000	0.833776
46.500000	0.833349
46.700000	0.832919
46.900000	0.832486
47.100000	0.832051
47.300000	0.831614
47.500000	0.831173
47.700000	0.830731
47.900000	0.830286
48.100000	0.829838
48.300000	0.829387
48.500000	0.828934
48.700000	0.828479
48.900000	0.828021
49.100000	0.827560
49.300000	0.827097
49.500000	0.826630
49.700000	0.826162
49.900000	0.825690
50.100000	0.825216
50.300000	0.824740
50.500000	0.824260
50.700000	0.823778
50.900000	0.823293
51.100000	0.822806
51.300000	0.822316
51.500000	0.821823
51.700000	0.821327
51.900000	0.820828
52.100000	0.820327
52.300000	0.819823
52.500000	0.819316
52.700000	0.818807
52.900000	0.818294
53.100000	0.817779
53.300000	0.817261
53.500000	0.816740
53.700000	0.816216
53.900000	0.815690
54.100000	0.815160
54.300000	0.814628
54.500000	0.814092
54.700000	0.813554
54.900000	0.813013
55.100000	0.812469
55.300000	0.811922
55.500000	0.811372
55.700000	0.810819
55.900000	0.810264
56.100000	0.809705
56.300000	0.809143
56.500000	0.808578
56.700000	0.808011
56.900000	0.807440
57.100000	0.806866
57.300000	0.806289
57.500000	0.805709
57.700000	0.805126
57.900000	0.804540
58.100000	0.803951
58.300000	0.803359
58.500000	0.802763
58.700000	0.802165
58.900000	0.801563
59.100000	0.800958
59.300000	0.800350
59.500000	0.799739
59.700000	0.799125
59.900000	0.798507
60.100000	0.797887
60.300000	0.797263
60.500000	0.796636
60.700000	0.796005
60.900000	0.795372
61.100000	0.794735
61.300000	0.794095
61.500000	0.793451
61.700000	0.792805
61.900000	0.792155
62.100000	0.791501
62.300000	0.790845
62.500000	0.790185
62.700000	0.789521
62.900000	0.788855
63.100000	0.788184
63.300000	0.787511
63.500000	0.786834
63.700000	0.786154
63.900000	0.785470
64.100000	0.784783
64.300000	0.784092
64.500000	0.783398
64.700000	0.782701
64.900000	0.782000
65.100000	0.781295
65.300000	0.780587
65.500000	0.779875
65.700000	0.779160
65.900000	0.778442
66.100000	0.777719
66.300000	0.776994
66.500000	0.776264
66.700000	0.775531
66.900000	0.774795
67.100000	0.774055
67.300000	0.773311
67.500000	0.772563
67.700000	0.771812
67.900000	0.771057
68.100000	0.770299
68.300000	0.769537
68.500000	0.768771
68.700000	0.768001
68.900000	0.767228
69.100000	0.766451
69.300000	0.765670
69.500000	0.764886
69.700000	0.764097
69.900000	0.763305
70.100000	0.762509
70.300000	0.761709
70.500000	0.760906
70.700000	0.760098
70.900000	0.759287
71.100000	0.758472
71.300000	0.757653
71.500000	0.756830
71.700000	0.756003
71.900000	0.755173
72.100000	0.754338
72.300000	0.753500
72.500000	0.752657
72.700000	0.751811
72.900000	0.750960
73.100000	0.750106
73.300000	0.749247
73.500000	0.748385
73.700000	0.747519
73.900000	0.746648
74.100000	0.745774
74.300000	0.744895
74.500000	0.744013
74.700000	0.743126
74.900000	0.742235
75.100000	0.741340
75.300000	0.740441
75.500000	0.739538
75.700000	0.738631
75.900000	0.737720
76.100000	0.736804
76.300000	0.735884
76.500000	0.734961
76.700000	0.734033
76.900000	0.733100
77.100000	0.732164
77.300000	0.731223
77.500000	0.730278
77.700000	0.729329
77.900000	0.728376
78.100000	0.727418
78.300000	0.726456
78.500000	0.725490
78.700000	0.724519
78.900000	0.723544
79.100000	0.722565
79.300000	0.721582
79.500000	0.720594
79.700000	0.719602
79.900000	0.718605
80.100000	0.717604
80.300000	0.716599
80.500000	0.715589
80.700000	0.714575
80.900000	0.713557
81.100000	0.712534
81.300000	0.711507
81.500000	0.710475
81.700000	0.709439
81.900000	0.708398
82.100000	0.707353
82.300000	0.706303
82.500000	0.705249
82.700000	0.704191
82.900000	0.703128
83.100000	0.702060
83.300000	0.700988
83.500000	0.699911
83.700000	0.698830
83.900000	0.697745
84.100000	0.696654
84.300000	0.695560
84.500000	0.694460
84.700000	0.693356
84.900000	0.692248
85.100000	0.691135
85.300000	0.690017
85.500000	0.688895
85.700000	0.687768
85.900000	0.686637
86.100000	0.685501
86.300000	0.684360
86.500000	0.683215
86.700000	0.682065
86.900000	0.680911
87.100000	0.679751
87.300000	0.678588
87.500000	0.677419
87.700000	0.676246
87.900000	0.675068
88.100000	0.673886
88.300000	0.672699
88.500000	0.671507
88.700000	0.670310
88.900000	0.669109
89.100000	0.667904
89.300000	0.666693
89.500000	0.665478
89.700000	0.664258
89.900000	0.663033
90.100000	0.661804
90.300000	0.660570
90.500000	0.659332
90.700000	0.658088
90.900000	0.656840
91.100000	0.655588
91.300000	0.654330
91.500000	0.653068
91.700000	0.651802
91.900000	0.650530
92.100000	0.649254
92.300000	0.647973
92.500000	0.646688
92.700000	0.645398
92.900000	0.644103
93.100000	0.642803
93.300000	0.641499
93.500000	0.640190
93.700000	0.638877
93.900000	0.637559
94.100000	0.636236
94.300000	0.634908
94.500000	0.633576
94.700000	0.632240
94.900000	0.630898
95.100000	0.629552
95.300000	0.628202
95.500000	0.626847
95.700000	0.625487
95.900000	0.624123
96.100000	0.622754
96.300000	0.621380
96.500000	0.620002
96.700000	0.618620
96.900000	0.617233
97.100000	0.615841
97.300000	0.614445
97.500000	0.613045
97.700000	0.611640
97.900000	0.610230
98.100000	0.608816
98.300000	0.607398
98.500000	0.605975
98.700000	0.604548
98.900000	0.603117
99.100000	0.601681
99.300000	0.600241
99.500000	0.598797
99.700000	0.597348
99.900000	0.595895
100.100000	0.594438
100.300000	0.592977
100.500000	0.591511
100.700000	0.590041
100.900000	0.588568
101.100000	0.587090
101.300000	0.585608
101.500000	0.584122
101.700000	0.582632
101.900000	0.581137
102.100000	0.579640
102.300000	0.578138
102.500000	0.576632
102.700000	0.575122
102.900000	0.573609
103.100000	0.572092
103.300000	0.570571
103.500000	0.569046
103.700000	0.567518
103.900000	0.565986
104.100000	0.564451
104.300000	0.562912
104.500000	0.561369
104.700000	0.559823
104.900000	0.558274
105.100000	0.556722
105.300000	0.555166
105.500000	0.553607
105.700000	0.552044
105.900000	0.550479
106.100000	0.548911
106.300000	0.547339
106.500000	0.545765
106.700000	0.544188
106.900000	0.542608
107.100000	0.541025
107.300000	0.539439
107.500000	0.537851
107.700000	0.536260
107.900000	0.534667
108.100000	0.533072
108.300000	0.531474
108.500000	0.529874
108.700000	0.528271
108.900000	0.526667
109.100000	0.525060
109.300000	0.523452
109.500000	0.521842
109.700000	0.520230
109.900000	0.518616
110.100000	0.517001
110.300000	0.515384
110.500000	0.513766
110.700000	0.512146
110.900000	0.510525
111.100000	0.508904
111.300000	0.507281
111.500000	0.505657
111.700000	0.504032
111.900000	0.502407
112.100000	0.500781
112.300000	0.499155
112.500000	0.497528
112.700000	0.495902
112.900000	0.494275
113.100000	0.492648
113.300000	0.491021
113.500000	0.489394
113.700000	0.487768
113.900000	0.486143
114.100000	0.484518
114.300000	0.482893
114.500000	0.481270
114.700000	0.479648
114.900000	0.478027
115.100000	0.476407
115.300000	0.474789
115.500000	0.473173
115.700000	0.471558
115.900000	0.469945
116.100000	0.468335
116.300000	0.466727
116.500000	0.465121
116.700000	0.463517
116.900000	0.461917
117.100000	0.460319
117.300000	0.458725
117.500000	0.457134
117.700000	0.455546
117.900000	0.453962
118.100000	0.452382
118.300000	0.450806
118.500000	0.449234
118.700000	0.447666
118.900000	0.446103
119.100000	0.444545
119.300000	0.442991
119.500000	0.441443
119.700000	0.439900
119.900000	0.438363
120.100000	0.436831
120.300000	0.435305
120.500000	0.433786
120.700000	0.432273
120.900000	0.430766
121.100000	0.429266
121.300000	0.427773
121.500000	0.426287
121.700000	0.424809
121.900000	0.423338
122.100000	0.421875
122.300000	0.420420
122.500000	0.418974
122.700000	0.417535
122.900000	0.416106
123.100000	0.414685
123.300000	0.413274
123.500000	0.411872
123.700000	0.410479
123.900000	0.409097
124.100000	0.407724
124.300000	0.406361
124.500000	0.405009
124.700000	0.403668
124.900000	0.402338
125.100000	0.401019
125.300000	0.399711
125.500000	0.398414
125.700000	0.397130
125.900000	0.395857
126.100000	0.394597
126.300000	0.393349
126.500000	0.392114
126.700000	0.390892
126.900000	0.389683
127.100000	0.388487
127.300000	0.387305
127.500000	0.386136
127.700000	0.384981
127.900000	0.383841
128.100000	0.382715
128.300000	0.381603
128.500000	0.380506
128.700000	0.379425
128.900000	0.378358
129.100000	0.377307
129.300000	0.376271
129.500000	0.375251
129.700000	0.374247
129.900000	0.373259
130.100000	0.372287
130.300000	0.371332
130.500000	0.370393
130.700000	0.369471
130.900000	0.368567
131.100000	0.367679
131.300000	0.366809
131.500000	0.365956
131.700000	0.365121
131.900000	0.364303
132.100000	0.363504
132.300000	0.362723
132.500000	0.361959
132.700000	0.361215
132.900000	0.360488
133.100000	0.359781
133.300000	0.359092
133.500000	0.358422
133.700000	0.357771
133.900000	0.357140
134.100000	0.356527
134.300000	0.355934
134.500000	0.355360
134.700000	0.354806
134.900000	0.354272
135.100000	0.353757
135.300000	0.353262
135.500000	0.352787
135.700000	0.352333
135.900000	0.351898
136.100000	0.351484
136.300000	0.351089
136.500000	0.350715
136.700000	0.350362
136.900000	0.350029
137.100000	0.349717
137.300000	0.349425
137.500000	0.349153
137.700000	0.348903
137.900000	0.348673
138.100000	0.348464
138.300000	0.348276
138.500000	0.348108
138.700000	0.347962
138.900000	0.347836
139.100000	0.347731
139.300000	0.347647
139.500000	0.347585
139.700000	0.347543
139.900000	0.347522
